{
  "id": "177",
  "code": {
    "text": "Laborwerte",
    "coding": [
      {
        "code": "11502-2",
        "system": "http://loinc.org",
        "display": "Laborwerte"
      }
    ]
  },
  "text": {
    "div": "<div xmlns=\"http://www.w3.org/1999/xhtml\"><div class=\"hapiHeaderText\"> Laborwerte </div><table class=\"hapiPropertyTable\"><tbody><tr><td>Status</td><td>FINAL</td></tr></tbody></table><table class=\"hapiTableOfValues\"><thead><tr><td>Name</td><td>Value</td><td>Interpretation</td><td>Reference Range</td><td>Status</td></tr></thead><tbody><tr class=\"hapiTableOfValuesRowOdd\"><td> TEST </td><td>42</td><td></td><td> - </td><td>FINAL</td></tr><tr class=\"hapiTableOfValuesRowOdd\"><td colspan=\"5\">Dies ist ein Testanalayt.</td></tr></tbody></table></div>",
    "status": "generated"
  },
  "result": [
    {
      "reference": "#embedded-observation-1"
    }
  ],
  "status": "final",
  "subject": {
    "reference": "#embedded-patient"
  },
  "category": [
    {
      "text": "KLIN"
    }
  ],
  "contained": [
    {
      "id": "embedded-patient",
      "name": [
        {
          "given": [
            "Testvorname"
          ],
          "family": "Testnachname"
        }
      ],
      "gender": "male",
      "birthDate": "1990-06-01",
      "identifier": [
        {
          "value": "599999"
        }
      ],
      "resourceType": "Patient"
    },
    {
      "id": "embedded-visit",
      "class": {
        "code": "AMB",
        "system": "http://terminology.hl7.org/CodeSystem/v3-ActCode",
        "display": "ambulatory"
      },
      "status": "unknown",
      "identifier": [
        {
          "value": "psn-73811550"
        }
      ],
      "resourceType": "Encounter"
    },
    {
      "id": "embedded-producer",
      "identifier": [
        {
          "value": "KLIN"
        }
      ],
      "resourceType": "Organization"
    },
    {
      "id": "embedded-observation-1",
      "code": {
        "text": "TEST",
        "coding": [
          {
            "code": "TEST",
            "display": "TEST"
          }
        ]
      },
      "note": [
        {
          "text": "Dies ist ein Testanalayt."
        }
      ],
      "status": "final",
      "subject": {
        "reference": "#embedded-patient"
      },
      "category": [
        {
          "text": "Nicht zugeordnet"
        }
      ],
      "encounter": {
        "reference": "#embedded-visit"
      },
      "performer": [
        {
          "reference": "#embedded-producer"
        }
      ],
      "identifier": [
        {
          "value": "20200720_24351786_TEST"
        }
      ],
      "resourceType": "Observation",
      "valueQuantity": {
        "value": 42
      },
      "interpretation": [
        {
          "coding": [
            {
              "code": "A"
            }
          ]
        }
      ],
      "referenceRange": [
        {
          "text": "negativ"
        }
      ],
      "effectiveDateTime": "2020-07-20T14:36:00+02:00"
    }
  ],
  "encounter": {
    "reference": "#embedded-visit"
  },
  "performer": [
    {
      "reference": "#embedded-producer"
    }
  ],
  "identifier": [
    {
      "value": "20200720_24351786"
    }
  ],
  "resourceType": "DiagnosticReport",
  "effectiveDateTime": "2020-07-20T14:36:00+02:00"
}